*RAS_DATA_START
*RAS_HEADER_START
*CORR_POS_DB_NAME "Correct"
*CORR_POS_GONIO_RADIUS ""
*CORR_POS_NODE_INDEX01 ""
*CORR_POS_NODE_INDEX02 ""
*CORR_POS_NODE_INDEX03 ""
*CORR_POS_NODE_INDEX04 ""
*CORR_POS_NODE_INDEX05 ""
*CORR_POS_NODE_INDEX06 ""
*CORR_POS_NODE_INDEX07 ""
*CORR_POS_NODE_INDEX08 ""
*CORR_POS_NODE_INDEX09 ""
*CORR_POS_NODE_INDEX10 ""
*CORR_POS_NODE_INDEX11 ""
*CORR_POS_NODE_LABEL01 "Si(111)"
*CORR_POS_NODE_LABEL02 "Si(220)"
*CORR_POS_NODE_LABEL03 "Si(311)"
*CORR_POS_NODE_LABEL04 "Si(400)"
*CORR_POS_NODE_LABEL05 "Si(331)"
*CORR_POS_NODE_LABEL06 "Si(422)"
*CORR_POS_NODE_LABEL07 "Si(511)"
*CORR_POS_NODE_LABEL08 "Si(440)"
*CORR_POS_NODE_LABEL09 "Si(531)"
*CORR_POS_NODE_LABEL10 "Si(620)"
*CORR_POS_NODE_LABEL11 "Si(533)"
*CORR_POS_NODE_POS_CALC01 "28.377"
*CORR_POS_NODE_POS_CALC02 "47.2506"
*CORR_POS_NODE_POS_CALC03 "56.0725"
*CORR_POS_NODE_POS_CALC04 "69.0822"
*CORR_POS_NODE_POS_CALC05 "76.3294"
*CORR_POS_NODE_POS_CALC06 "87.9853"
*CORR_POS_NODE_POS_CALC07 "94.9091"
*CORR_POS_NODE_POS_CALC08 "106.668"
*CORR_POS_NODE_POS_CALC09 "114.054"
*CORR_POS_NODE_POS_CALC10 "127.511"
*CORR_POS_NODE_POS_CALC11 "136.864"
*CORR_POS_NODE_POS_MEAS01 "28.3748"
*CORR_POS_NODE_POS_MEAS02 "47.2433"
*CORR_POS_NODE_POS_MEAS03 "56.0578"
*CORR_POS_NODE_POS_MEAS04 "69.0704"
*CORR_POS_NODE_POS_MEAS05 "76.3153"
*CORR_POS_NODE_POS_MEAS06 "87.9774"
*CORR_POS_NODE_POS_MEAS07 "94.9047"
*CORR_POS_NODE_POS_MEAS08 "106.671"
*CORR_POS_NODE_POS_MEAS09 "114.058"
*CORR_POS_NODE_POS_MEAS10 "127.513"
*CORR_POS_NODE_POS_MEAS11 "136.874"
*CORR_POS_OPT_ATTR "�W���@"
*CORR_POS_PARAM_MU ""
*CORR_POS_PARAM_PL ""
*CORR_POS_SEMODEL_TYPE "0"
*CORR_POS_STANDARD_TYPE ""
*CORR_POS_VALUE_ANALYZER "None"
*CORR_POS_VALUE_CMONO "None"
*CORR_POS_VALUE_IMONO "None"
*CORR_POS_VALUE_IS "1.250deg"
*CORR_POS_VALUE_ISL "10.0mm"
*CORR_POS_VALUE_ISOLLER "5.0deg"
*CORR_POS_VALUE_RS1 "1.250deg"
*CORR_POS_VALUE_RS2 "0.3mm"
*CORR_POS_VALUE_RSOLLER "5.0deg"
*CORR_POS_XG_FOCUS_L ""
*CORR_POS_XG_WAVE_TYPE ""
*CORR_POS_XG_WAVE_VALUE ""
*DISP_FMT_X "%.2f"
*DISP_FMT_Y "%.0f"
*DISP_FULLSCALE "665.0000000000"
*DISP_LINE_COLOR "255.0000000000"
*DISP_LINE_STYLE "0.0000000000"
*DISP_LINE_WIDTH "0.2500000000"
*DISP_NOTE "Collected Data-56"
*DISP_OFFSET_Y "0.0000000000"
*DISP_PEAKSEARCH_UNIT_Y "cps"
*DISP_RANGE_BOTTOM "0.0000000000"
*DISP_RANGE_LEFT "15.0000000000"
*DISP_RANGE_LOGCUTOFF "0.0100000000"
*DISP_RANGE_RIGHT "50.0000000000"
*DISP_RANGE_TOP "665.0000000000"
*DISP_SCALE_MODE_Y "0.0000000000"
*DISP_TAB_NAME "Theta/2-Theta"
*DISP_TITLE_Y "Intensity"
*DISP_UNIT_Y "cps"
*DISP_WINDOW_NAME "MSG_MACROENGINE"
*FILE_COMMENT " "
*FILE_MD5 ""
*FILE_MEMO " "
*FILE_OPERATOR "Administrator"
*FILE_SAMPLE "Ferrite XRD"
*FILE_TYPE "RAS_RAW"
*FILE_USERGROUP "System Manager"
*FILE_VERSION "1.0000000000"
*HW_ATTACHMENT_ID "ATT1025"
*HW_ATTACHMENT_NAME "�W��������|Standard Sample Holder"
*HW_COUNTER_ID-0 "CUT0021"
*HW_COUNTER_ID-1 "CUT0020"
*HW_COUNTER_ID-2 "CUT0020"
*HW_COUNTER_ID-3 "CMC0021"
*HW_COUNTER_NAME-0 "SC-70|SC-70"
*HW_COUNTER_NAME-1 "None|None"
*HW_COUNTER_NAME-2 "None|None"
*HW_COUNTER_NAME-3 "���o�탂�m�N�����[�^|Detector monochromator"
*HW_COUNTER_SELECT_NAME "SC-70|SC-70"
*HW_ECP_HV "655.5000000000"
*HW_ECP_HV_UNIT "V"
*HW_GONIOMETER_ID "GON0070"
*HW_GONIOMETER_NAME "MiniFlex 300/600|MiniFlex 300/600"
*HW_GONIOMETER_RADIUS-0 "79.0"
*HW_GONIOMETER_RADIUS-1 "91.5"
*HW_GONIOMETER_RADIUS-2 "150.0"
*HW_GONIOMETER_RADIUS-3 "0"
*HW_GONIOMETER_RADIUS-4 "103.4"
*HW_GONIOMETER_RADIUS-5 "150.0"
*HW_GONIOMETER_RADIUS-6 "46.6"
*HW_GONIOMETER_RADIUS-7 "160.0"
*HW_I_OPT_ID-0 "ISL0021"
*HW_I_OPT_ID-1 "ISO0021"
*HW_I_OPT_NAME-0 "���U�X���b�g|Divergence slit"
*HW_I_OPT_NAME-1 "���˕��s�X���b�g|Incident parallel slit"
*HW_R_ATTENUATER_AUTOMODE "0"
*HW_R_OPT_ID-0 "RSS0021"
*HW_R_OPT_ID-1 "RSO0021"
*HW_R_OPT_ID-2 "RRS0021"
*HW_R_OPT_NAME-0 "�U���X���b�g|Scattering slit"
*HW_R_OPT_NAME-1 "������s�X���b�g|Receiving soller slit"
*HW_R_OPT_NAME-2 "����X���b�g|Receiving slit"
*HW_SAMPLE_HOLDER_ID "SMP0000"
*HW_SAMPLE_HOLDER_NAME "����|None"
*HW_XG_CURRENT_MAX "15"
*HW_XG_CURRENT_MIN "2"
*HW_XG_CURRENT_RESOLUTION "1"
*HW_XG_CURRENT_UNIT "mA"
*HW_XG_FOCUS "1mm x 10mm"
*HW_XG_FOCUS_TYPE "Normal"
*HW_XG_ID ""
*HW_XG_NAME "300W/600W ������-B|300W/600W Sealed tube-B"
*HW_XG_TARGET_ATOMIC_NUMBER "29.0000000000"
*HW_XG_TARGET_NAME "Cu"
*HW_XG_TYPE "Hermetic"
*HW_XG_VOLTAGE_MAX "40"
*HW_XG_VOLTAGE_MIN "20"
*HW_XG_VOLTAGE_RESOLUTION "1"
*HW_XG_VOLTAGE_UNIT "kV"
*HW_XG_WATT_MAX "1"
*HW_XG_WATT_UNIT "kW"
*HW_XG_WAVE_LENGTH_ALPHA1 "1.540593"
*HW_XG_WAVE_LENGTH_ALPHA2 "1.544414"
*HW_XG_WAVE_LENGTH_BETA "1.392250"
*MEAS_COND_AXIS_NAME-0 "Theta/2-Theta"
*MEAS_COND_AXIS_NAME-1 "Soller(inc.)"
*MEAS_COND_AXIS_NAME-2 "IHS"
*MEAS_COND_AXIS_NAME-3 "DS"
*MEAS_COND_AXIS_NAME-4 "SS"
*MEAS_COND_AXIS_NAME-5 "Soller(rec.)"
*MEAS_COND_AXIS_NAME-6 "RS"
*MEAS_COND_AXIS_NAME-7 "Filter"
*MEAS_COND_AXIS_NAME-8 "Monochromator"
*MEAS_COND_AXIS_NAME-9 "HV"
*MEAS_COND_AXIS_NAME-10 "PHA"
*MEAS_COND_AXIS_NAME_INTERNAL-0 "TwoThetaTheta"
*MEAS_COND_AXIS_NAME_INTERNAL-1 "IncidentSollerSlit"
*MEAS_COND_AXIS_NAME_INTERNAL-2 "IncidentAxdSlit"
*MEAS_COND_AXIS_NAME_INTERNAL-3 "IncidentSlitBox"
*MEAS_COND_AXIS_NAME_INTERNAL-4 "ReceivingSlitBox1"
*MEAS_COND_AXIS_NAME_INTERNAL-5 "ReceivingSollerSlit"
*MEAS_COND_AXIS_NAME_INTERNAL-6 "ReceivingSlitBox2"
*MEAS_COND_AXIS_NAME_INTERNAL-7 "Filter"
*MEAS_COND_AXIS_NAME_INTERNAL-8 "CounterMonochromator"
*MEAS_COND_AXIS_NAME_INTERNAL-9 "HV"
*MEAS_COND_AXIS_NAME_INTERNAL-10 "PHA"
*MEAS_COND_AXIS_NAME_MAGICNO-0 "268632064.0000000000"
*MEAS_COND_AXIS_NAME_MAGICNO-1 "20971521.0000000000"
*MEAS_COND_AXIS_NAME_MAGICNO-2 "22020097.0000000000"
*MEAS_COND_AXIS_NAME_MAGICNO-3 "22020097.0000000000"
*MEAS_COND_AXIS_NAME_MAGICNO-4 "23068673.0000000000"
*MEAS_COND_AXIS_NAME_MAGICNO-5 "20971521.0000000000"
*MEAS_COND_AXIS_NAME_MAGICNO-6 "23068673.0000000000"
*MEAS_COND_AXIS_NAME_MAGICNO-7 "20971521.0000000000"
*MEAS_COND_AXIS_NAME_MAGICNO-8 "20971521.0000000000"
*MEAS_COND_AXIS_NAME_MAGICNO-9 "0.0000000000"
*MEAS_COND_AXIS_NAME_MAGICNO-10 "0.0000000000"
*MEAS_COND_AXIS_OFFSET-0 "0.0000000000"
*MEAS_COND_AXIS_OFFSET-1 "-"
*MEAS_COND_AXIS_OFFSET-2 "-"
*MEAS_COND_AXIS_OFFSET-3 "-"
*MEAS_COND_AXIS_OFFSET-4 "-"
*MEAS_COND_AXIS_OFFSET-5 "-"
*MEAS_COND_AXIS_OFFSET-6 "-"
*MEAS_COND_AXIS_OFFSET-7 "-"
*MEAS_COND_AXIS_OFFSET-8 "-"
*MEAS_COND_AXIS_OFFSET-9 "-"
*MEAS_COND_AXIS_OFFSET-10 "-"
*MEAS_COND_AXIS_POSITION-0 "10.0000000000"
*MEAS_COND_AXIS_POSITION-1 "5.0deg"
*MEAS_COND_AXIS_POSITION-2 "10.0mm"
*MEAS_COND_AXIS_POSITION-3 "1.250deg"
*MEAS_COND_AXIS_POSITION-4 "1.250deg"
*MEAS_COND_AXIS_POSITION-5 "5.0deg"
*MEAS_COND_AXIS_POSITION-6 "0.3mm"
*MEAS_COND_AXIS_POSITION-7 "None"
*MEAS_COND_AXIS_POSITION-8 "Bent"
*MEAS_COND_AXIS_POSITION-9 "655.5000000000"
*MEAS_COND_AXIS_POSITION-10 "555.0000000000"
*MEAS_COND_AXIS_UNIT-0 "deg"
*MEAS_COND_AXIS_UNIT-1 ""
*MEAS_COND_AXIS_UNIT-2 ""
*MEAS_COND_AXIS_UNIT-3 ""
*MEAS_COND_AXIS_UNIT-4 ""
*MEAS_COND_AXIS_UNIT-5 ""
*MEAS_COND_AXIS_UNIT-6 ""
*MEAS_COND_AXIS_UNIT-7 ""
*MEAS_COND_AXIS_UNIT-8 ""
*MEAS_COND_AXIS_UNIT-9 "V"
*MEAS_COND_AXIS_UNIT-10 "mV"
*MEAS_COND_CORRECTION_SLIT_COUNTERMONO "None"
*MEAS_COND_CORRECTION_SLIT_DS "1.250deg"
*MEAS_COND_CORRECTION_SLIT_FILTER "None"
*MEAS_COND_CORRECTION_SLIT_IHS "10.0mm"
*MEAS_COND_CORRECTION_SLIT_RS "0.3mm"
*MEAS_COND_CORRECTION_SLIT_SOLLER_INC "5.0deg"
*MEAS_COND_CORRECTION_SLIT_SOLLER_REC "5.0deg"
*MEAS_COND_CORRECTION_SLIT_SS "1.250deg"
*MEAS_COND_COUNTER_CNTLOSS_CORR "0.0000000000"
*MEAS_COND_COUNTER_PHABASE "555.0000000000"
*MEAS_COND_COUNTER_PHAWINDOW "925.0000000000"
*MEAS_COND_COUNTER_PHA_UNIT "mV"
*MEAS_COND_COUNTER_TAUDIFF "0.2500000000"
*MEAS_COND_COUNTER_TAUINT "0.7500000000"
*MEAS_COND_IRRADIATION_MODE "OFF"
*MEAS_COND_IRRADIATION_WIDTH ""
*MEAS_COND_OPT_ATTR " "
*MEAS_COND_OPT_NAME ""
*MEAS_COND_UNSYMMETRIC_MODE "OFF"
*MEAS_COND_XG_CURRENT "15.0000000000"
*MEAS_COND_XG_VOLTAGE "40.0000000000"
*MEAS_COND_XG_WAVE_TYPE "Ka"
*MEAS_DATA_COUNT "1751.0000000000"
*MEAS_SCAN_AXIS_X "Theta/2-Theta"
*MEAS_SCAN_AXIS_X_INTERNAL "TwoThetaTheta"
*MEAS_SCAN_END_TIME "09/22/15 13:12:58"
*MEAS_SCAN_MODE "CONTINUOUS"
*MEAS_SCAN_MONITOR "0"
*MEAS_SCAN_RESOLUTION_X "0.0025"
*MEAS_SCAN_SPEED "2.5000"
*MEAS_SCAN_SPEED_UNIT "deg/min"
*MEAS_SCAN_START "15.0000000000"
*MEAS_SCAN_START_TIME "09/22/15 12:58:51"
*MEAS_SCAN_STEP "0.0200000000"
*MEAS_SCAN_STOP "50.0000000000"
*MEAS_SCAN_UNIT_X "deg"
*MEAS_SCAN_UNIT_Y "counts"
*SLIT_SYSTEM "0"
*RAS_HEADER_END
*RAS_INT_START
15.0000 22.0000 1.0000
15.0200 30.0000 1.0000
15.0400 24.0000 1.0000
15.0600 25.0000 1.0000
15.0800 26.0000 1.0000
15.1000 27.0000 1.0000
15.1200 26.0000 1.0000
15.1400 25.0000 1.0000
15.1600 30.0000 1.0000
15.1800 26.0000 1.0000
15.2000 21.0000 1.0000
15.2200 32.0000 1.0000
15.2400 20.0000 1.0000
15.2600 25.0000 1.0000
15.2800 25.0000 1.0000
15.3000 38.0000 1.0000
15.3200 31.0000 1.0000
15.3400 24.0000 1.0000
15.3600 23.0000 1.0000
15.3800 23.0000 1.0000
15.4000 32.0000 1.0000
15.4200 26.0000 1.0000
15.4400 23.0000 1.0000
15.4600 22.0000 1.0000
15.4800 25.0000 1.0000
15.5000 30.0000 1.0000
15.5200 16.0000 1.0000
15.5400 25.0000 1.0000
15.5600 20.0000 1.0000
15.5800 28.0000 1.0000
15.6000 25.0000 1.0000
15.6200 22.0000 1.0000
15.6400 18.0000 1.0000
15.6600 26.0000 1.0000
15.6800 29.0000 1.0000
15.7000 23.0000 1.0000
15.7200 27.0000 1.0000
15.7400 21.0000 1.0000
15.7600 33.0000 1.0000
15.7800 26.0000 1.0000
15.8000 28.0000 1.0000
15.8200 26.0000 1.0000
15.8400 14.0000 1.0000
15.8600 25.0000 1.0000
15.8800 24.0000 1.0000
15.9000 24.0000 1.0000
15.9200 18.0000 1.0000
15.9400 22.0000 1.0000
15.9600 19.0000 1.0000
15.9800 30.0000 1.0000
16.0000 21.0000 1.0000
16.0200 16.0000 1.0000
16.0400 19.0000 1.0000
16.0600 22.0000 1.0000
16.0800 33.0000 1.0000
16.1000 17.0000 1.0000
16.1200 15.0000 1.0000
16.1400 20.0000 1.0000
16.1600 22.0000 1.0000
16.1800 28.0000 1.0000
16.2000 21.0000 1.0000
16.2200 27.0000 1.0000
16.2400 17.0000 1.0000
16.2600 22.0000 1.0000
16.2800 21.0000 1.0000
16.3000 21.0000 1.0000
16.3200 29.0000 1.0000
16.3400 16.0000 1.0000
16.3600 21.0000 1.0000
16.3800 24.0000 1.0000
16.4000 15.0000 1.0000
16.4200 29.0000 1.0000
16.4400 15.0000 1.0000
16.4600 18.0000 1.0000
16.4800 17.0000 1.0000
16.5000 26.0000 1.0000
16.5200 15.0000 1.0000
16.5400 25.0000 1.0000
16.5600 21.0000 1.0000
16.5800 25.0000 1.0000
16.6000 23.0000 1.0000
16.6200 23.0000 1.0000
16.6400 24.0000 1.0000
16.6600 25.0000 1.0000
16.6800 20.0000 1.0000
16.7000 16.0000 1.0000
16.7200 24.0000 1.0000
16.7400 21.0000 1.0000
16.7600 29.0000 1.0000
16.7800 29.0000 1.0000
16.8000 23.0000 1.0000
16.8200 30.0000 1.0000
16.8400 20.0000 1.0000
16.8600 27.0000 1.0000
16.8800 27.0000 1.0000
16.9000 28.0000 1.0000
16.9200 28.0000 1.0000
16.9400 24.0000 1.0000
16.9600 22.0000 1.0000
16.9800 15.0000 1.0000
17.0000 23.0000 1.0000
17.0200 23.0000 1.0000
17.0400 23.0000 1.0000
17.0600 15.0000 1.0000
17.0800 25.0000 1.0000
17.1000 22.0000 1.0000
17.1200 20.0000 1.0000
17.1400 10.0000 1.0000
17.1600 23.0000 1.0000
17.1800 31.0000 1.0000
17.2000 21.0000 1.0000
17.2200 22.0000 1.0000
17.2400 21.0000 1.0000
17.2600 25.0000 1.0000
17.2800 20.0000 1.0000
17.3000 15.0000 1.0000
17.3200 25.0000 1.0000
17.3400 25.0000 1.0000
17.3600 25.0000 1.0000
17.3800 26.0000 1.0000
17.4000 22.0000 1.0000
17.4200 14.0000 1.0000
17.4400 20.0000 1.0000
17.4600 16.0000 1.0000
17.4800 20.0000 1.0000
17.5000 26.0000 1.0000
17.5200 27.0000 1.0000
17.5400 27.0000 1.0000
17.5600 29.0000 1.0000
17.5800 22.0000 1.0000
17.6000 30.0000 1.0000
17.6200 30.0000 1.0000
17.6400 23.0000 1.0000
17.6600 29.0000 1.0000
17.6800 38.0000 1.0000
17.7000 27.0000 1.0000
17.7200 35.0000 1.0000
17.7400 27.0000 1.0000
17.7600 19.0000 1.0000
17.7800 19.0000 1.0000
17.8000 22.0000 1.0000
17.8200 21.0000 1.0000
17.8400 23.0000 1.0000
17.8600 17.0000 1.0000
17.8800 37.0000 1.0000
17.9000 19.0000 1.0000
17.9200 17.0000 1.0000
17.9400 22.0000 1.0000
17.9600 15.0000 1.0000
17.9800 18.0000 1.0000
18.0000 27.0000 1.0000
18.0200 17.0000 1.0000
18.0400 29.0000 1.0000
18.0600 27.0000 1.0000
18.0800 18.0000 1.0000
18.1000 17.0000 1.0000
18.1200 14.0000 1.0000
18.1400 19.0000 1.0000
18.1600 16.0000 1.0000
18.1800 7.0000 1.0000
18.2000 24.0000 1.0000
18.2200 20.0000 1.0000
18.2400 18.0000 1.0000
18.2600 18.0000 1.0000
18.2800 20.0000 1.0000
18.3000 15.0000 1.0000
18.3200 18.0000 1.0000
18.3400 27.0000 1.0000
18.3600 16.0000 1.0000
18.3800 17.0000 1.0000
18.4000 20.0000 1.0000
18.4200 21.0000 1.0000
18.4400 22.0000 1.0000
18.4600 16.0000 1.0000
18.4800 17.0000 1.0000
18.5000 19.0000 1.0000
18.5200 25.0000 1.0000
18.5400 22.0000 1.0000
18.5600 21.0000 1.0000
18.5800 19.0000 1.0000
18.6000 16.0000 1.0000
18.6200 23.0000 1.0000
18.6400 24.0000 1.0000
18.6600 20.0000 1.0000
18.6800 26.0000 1.0000
18.7000 29.0000 1.0000
18.7200 30.0000 1.0000
18.7400 34.0000 1.0000
18.7600 34.0000 1.0000
18.7800 36.0000 1.0000
18.8000 54.0000 1.0000
18.8200 44.0000 1.0000
18.8400 34.0000 1.0000
18.8600 37.0000 1.0000
18.8800 36.0000 1.0000
18.9000 34.0000 1.0000
18.9200 38.0000 1.0000
18.9400 24.0000 1.0000
18.9600 26.0000 1.0000
18.9800 23.0000 1.0000
19.0000 18.0000 1.0000
19.0200 24.0000 1.0000
19.0400 23.0000 1.0000
19.0600 21.0000 1.0000
19.0800 19.0000 1.0000
19.1000 16.0000 1.0000
19.1200 22.0000 1.0000
19.1400 14.0000 1.0000
19.1600 12.0000 1.0000
19.1800 12.0000 1.0000
19.2000 12.0000 1.0000
19.2200 17.0000 1.0000
19.2400 22.0000 1.0000
19.2600 12.0000 1.0000
19.2800 11.0000 1.0000
19.3000 14.0000 1.0000
19.3200 10.0000 1.0000
19.3400 15.0000 1.0000
19.3600 25.0000 1.0000
19.3800 17.0000 1.0000
19.4000 15.0000 1.0000
19.4200 17.0000 1.0000
19.4400 12.0000 1.0000
19.4600 16.0000 1.0000
19.4800 19.0000 1.0000
19.5000 16.0000 1.0000
19.5200 16.0000 1.0000
19.5400 19.0000 1.0000
19.5600 14.0000 1.0000
19.5800 17.0000 1.0000
19.6000 13.0000 1.0000
19.6200 12.0000 1.0000
19.6400 15.0000 1.0000
19.6600 20.0000 1.0000
19.6800 20.0000 1.0000
19.7000 20.0000 1.0000
19.7200 14.0000 1.0000
19.7400 9.0000 1.0000
19.7600 17.0000 1.0000
19.7800 15.0000 1.0000
19.8000 20.0000 1.0000
19.8200 15.0000 1.0000
19.8400 10.0000 1.0000
19.8600 20.0000 1.0000
19.8800 16.0000 1.0000
19.9000 16.0000 1.0000
19.9200 16.0000 1.0000
19.9400 13.0000 1.0000
19.9600 10.0000 1.0000
19.9800 15.0000 1.0000
20.0000 14.0000 1.0000
20.0200 12.0000 1.0000
20.0400 14.0000 1.0000
20.0600 11.0000 1.0000
20.0800 19.0000 1.0000
20.1000 12.0000 1.0000
20.1200 15.0000 1.0000
20.1400 14.0000 1.0000
20.1600 12.0000 1.0000
20.1800 14.0000 1.0000
20.2000 21.0000 1.0000
20.2200 19.0000 1.0000
20.2400 13.0000 1.0000
20.2600 12.0000 1.0000
20.2800 16.0000 1.0000
20.3000 14.0000 1.0000
20.3200 10.0000 1.0000
20.3400 8.0000 1.0000
20.3600 10.0000 1.0000
20.3800 15.0000 1.0000
20.4000 14.0000 1.0000
20.4200 13.0000 1.0000
20.4400 13.0000 1.0000
20.4600 10.0000 1.0000
20.4800 9.0000 1.0000
20.5000 18.0000 1.0000
20.5200 13.0000 1.0000
20.5400 14.0000 1.0000
20.5600 17.0000 1.0000
20.5800 16.0000 1.0000
20.6000 13.0000 1.0000
20.6200 11.0000 1.0000
20.6400 9.0000 1.0000
20.6600 15.0000 1.0000
20.6800 17.0000 1.0000
20.7000 13.0000 1.0000
20.7200 8.0000 1.0000
20.7400 16.0000 1.0000
20.7600 15.0000 1.0000
20.7800 12.0000 1.0000
20.8000 11.0000 1.0000
20.8200 9.0000 1.0000
20.8400 10.0000 1.0000
20.8600 17.0000 1.0000
20.8800 22.0000 1.0000
20.9000 15.0000 1.0000
20.9200 14.0000 1.0000
20.9400 12.0000 1.0000
20.9600 10.0000 1.0000
20.9800 14.0000 1.0000
21.0000 9.0000 1.0000
21.0200 15.0000 1.0000
21.0400 9.0000 1.0000
21.0600 17.0000 1.0000
21.0800 9.0000 1.0000
21.1000 12.0000 1.0000
21.1200 16.0000 1.0000
21.1400 9.0000 1.0000
21.1600 10.0000 1.0000
21.1800 13.0000 1.0000
21.2000 12.0000 1.0000
21.2200 14.0000 1.0000
21.2400 9.0000 1.0000
21.2600 12.0000 1.0000
21.2800 10.0000 1.0000
21.3000 13.0000 1.0000
21.3200 14.0000 1.0000
21.3400 10.0000 1.0000
21.3600 9.0000 1.0000
21.3800 14.0000 1.0000
21.4000 11.0000 1.0000
21.4200 13.0000 1.0000
21.4400 13.0000 1.0000
21.4600 13.0000 1.0000
21.4800 16.0000 1.0000
21.5000 18.0000 1.0000
21.5200 14.0000 1.0000
21.5400 15.0000 1.0000
21.5600 11.0000 1.0000
21.5800 15.0000 1.0000
21.6000 11.0000 1.0000
21.6200 9.0000 1.0000
21.6400 12.0000 1.0000
21.6600 13.0000 1.0000
21.6800 13.0000 1.0000
21.7000 11.0000 1.0000
21.7200 13.0000 1.0000
21.7400 12.0000 1.0000
21.7600 13.0000 1.0000
21.7800 9.0000 1.0000
21.8000 9.0000 1.0000
21.8200 10.0000 1.0000
21.8400 8.0000 1.0000
21.8600 16.0000 1.0000
21.8800 15.0000 1.0000
21.9000 11.0000 1.0000
21.9200 12.0000 1.0000
21.9400 10.0000 1.0000
21.9600 13.0000 1.0000
21.9800 6.0000 1.0000
22.0000 9.0000 1.0000
22.0200 12.0000 1.0000
22.0400 7.0000 1.0000
22.0600 11.0000 1.0000
22.0800 11.0000 1.0000
22.1000 11.0000 1.0000
22.1200 12.0000 1.0000
22.1400 12.0000 1.0000
22.1600 15.0000 1.0000
22.1800 13.0000 1.0000
22.2000 11.0000 1.0000
22.2200 8.0000 1.0000
22.2400 7.0000 1.0000
22.2600 16.0000 1.0000
22.2800 13.0000 1.0000
22.3000 9.0000 1.0000
22.3200 13.0000 1.0000
22.3400 12.0000 1.0000
22.3600 8.0000 1.0000
22.3800 12.0000 1.0000
22.4000 15.0000 1.0000
22.4200 15.0000 1.0000
22.4400 16.0000 1.0000
22.4600 12.0000 1.0000
22.4800 10.0000 1.0000
22.5000 15.0000 1.0000
22.5200 14.0000 1.0000
22.5400 7.0000 1.0000
22.5600 21.0000 1.0000
22.5800 11.0000 1.0000
22.6000 8.0000 1.0000
22.6200 13.0000 1.0000
22.6400 9.0000 1.0000
22.6600 12.0000 1.0000
22.6800 24.0000 1.0000
22.7000 16.0000 1.0000
22.7200 21.0000 1.0000
22.7400 22.0000 1.0000
22.7600 23.0000 1.0000
22.7800 28.0000 1.0000
22.8000 28.0000 1.0000
22.8200 32.0000 1.0000
22.8400 35.0000 1.0000
22.8600 33.0000 1.0000
22.8800 22.0000 1.0000
22.9000 33.0000 1.0000
22.9200 34.0000 1.0000
22.9400 29.0000 1.0000
22.9600 16.0000 1.0000
22.9800 16.0000 1.0000
23.0000 17.0000 1.0000
23.0200 16.0000 1.0000
23.0400 20.0000 1.0000
23.0600 17.0000 1.0000
23.0800 14.0000 1.0000
23.1000 12.0000 1.0000
23.1200 10.0000 1.0000
23.1400 17.0000 1.0000
23.1600 18.0000 1.0000
23.1800 12.0000 1.0000
23.2000 12.0000 1.0000
23.2200 6.0000 1.0000
23.2400 9.0000 1.0000
23.2600 13.0000 1.0000
23.2800 11.0000 1.0000
23.3000 10.0000 1.0000
23.3200 14.0000 1.0000
23.3400 14.0000 1.0000
23.3600 10.0000 1.0000
23.3800 17.0000 1.0000
23.4000 11.0000 1.0000
23.4200 10.0000 1.0000
23.4400 16.0000 1.0000
23.4600 7.0000 1.0000
23.4800 10.0000 1.0000
23.5000 10.0000 1.0000
23.5200 11.0000 1.0000
23.5400 9.0000 1.0000
23.5600 12.0000 1.0000
23.5800 8.0000 1.0000
23.6000 5.0000 1.0000
23.6200 9.0000 1.0000
23.6400 7.0000 1.0000
23.6600 10.0000 1.0000
23.6800 10.0000 1.0000
23.7000 9.0000 1.0000
23.7200 7.0000 1.0000
23.7400 7.0000 1.0000
23.7600 12.0000 1.0000
23.7800 17.0000 1.0000
23.8000 10.0000 1.0000
23.8200 9.0000 1.0000
23.8400 12.0000 1.0000
23.8600 8.0000 1.0000
23.8800 4.0000 1.0000
23.9000 9.0000 1.0000
23.9200 10.0000 1.0000
23.9400 11.0000 1.0000
23.9600 7.0000 1.0000
23.9800 15.0000 1.0000
24.0000 5.0000 1.0000
24.0200 7.0000 1.0000
24.0400 6.0000 1.0000
24.0600 10.0000 1.0000
24.0800 13.0000 1.0000
24.1000 10.0000 1.0000
24.1200 6.0000 1.0000
24.1400 9.0000 1.0000
24.1600 8.0000 1.0000
24.1800 12.0000 1.0000
24.2000 8.0000 1.0000
24.2200 11.0000 1.0000
24.2400 7.0000 1.0000
24.2600 10.0000 1.0000
24.2800 3.0000 1.0000
24.3000 10.0000 1.0000
24.3200 9.0000 1.0000
24.3400 8.0000 1.0000
24.3600 14.0000 1.0000
24.3800 11.0000 1.0000
24.4000 7.0000 1.0000
24.4200 7.0000 1.0000
24.4400 7.0000 1.0000
24.4600 8.0000 1.0000
24.4800 6.0000 1.0000
24.5000 10.0000 1.0000
24.5200 7.0000 1.0000
24.5400 13.0000 1.0000
24.5600 12.0000 1.0000
24.5800 7.0000 1.0000
24.6000 10.0000 1.0000
24.6200 9.0000 1.0000
24.6400 7.0000 1.0000
24.6600 6.0000 1.0000
24.6800 10.0000 1.0000
24.7000 8.0000 1.0000
24.7200 10.0000 1.0000
24.7400 14.0000 1.0000
24.7600 10.0000 1.0000
24.7800 8.0000 1.0000
24.8000 9.0000 1.0000
24.8200 9.0000 1.0000
24.8400 12.0000 1.0000
24.8600 10.0000 1.0000
24.8800 7.0000 1.0000
24.9000 9.0000 1.0000
24.9200 8.0000 1.0000
24.9400 10.0000 1.0000
24.9600 10.0000 1.0000
24.9800 8.0000 1.0000
25.0000 6.0000 1.0000
25.0200 5.0000 1.0000
25.0400 4.0000 1.0000
25.0600 4.0000 1.0000
25.0800 7.0000 1.0000
25.1000 11.0000 1.0000
25.1200 8.0000 1.0000
25.1400 17.0000 1.0000
25.1600 11.0000 1.0000
25.1800 7.0000 1.0000
25.2000 11.0000 1.0000
25.2200 7.0000 1.0000
25.2400 9.0000 1.0000
25.2600 10.0000 1.0000
25.2800 13.0000 1.0000
25.3000 7.0000 1.0000
25.3200 7.0000 1.0000
25.3400 8.0000 1.0000
25.3600 4.0000 1.0000
25.3800 5.0000 1.0000
25.4000 13.0000 1.0000
25.4200 7.0000 1.0000
25.4400 10.0000 1.0000
25.4600 9.0000 1.0000
25.4800 7.0000 1.0000
25.5000 10.0000 1.0000
25.5200 6.0000 1.0000
25.5400 14.0000 1.0000
25.5600 8.0000 1.0000
25.5800 10.0000 1.0000
25.6000 13.0000 1.0000
25.6200 11.0000 1.0000
25.6400 7.0000 1.0000
25.6600 13.0000 1.0000
25.6800 10.0000 1.0000
25.7000 11.0000 1.0000
25.7200 12.0000 1.0000
25.7400 15.0000 1.0000
25.7600 7.0000 1.0000
25.7800 15.0000 1.0000
25.8000 9.0000 1.0000
25.8200 11.0000 1.0000
25.8400 9.0000 1.0000
25.8600 7.0000 1.0000
25.8800 6.0000 1.0000
25.9000 12.0000 1.0000
25.9200 13.0000 1.0000
25.9400 7.0000 1.0000
25.9600 10.0000 1.0000
25.9800 5.0000 1.0000
26.0000 7.0000 1.0000
26.0200 8.0000 1.0000
26.0400 13.0000 1.0000
26.0600 13.0000 1.0000
26.0800 11.0000 1.0000
26.1000 11.0000 1.0000
26.1200 7.0000 1.0000
26.1400 7.0000 1.0000
26.1600 7.0000 1.0000
26.1800 7.0000 1.0000
26.2000 7.0000 1.0000
26.2200 9.0000 1.0000
26.2400 5.0000 1.0000
26.2600 7.0000 1.0000
26.2800 11.0000 1.0000
26.3000 8.0000 1.0000
26.3200 8.0000 1.0000
26.3400 12.0000 1.0000
26.3600 10.0000 1.0000
26.3800 10.0000 1.0000
26.4000 6.0000 1.0000
26.4200 11.0000 1.0000
26.4400 9.0000 1.0000
26.4600 8.0000 1.0000
26.4800 8.0000 1.0000
26.5000 3.0000 1.0000
26.5200 3.0000 1.0000
26.5400 9.0000 1.0000
26.5600 6.0000 1.0000
26.5800 7.0000 1.0000
26.6000 15.0000 1.0000
26.6200 12.0000 1.0000
26.6400 10.0000 1.0000
26.6600 7.0000 1.0000
26.6800 11.0000 1.0000
26.7000 6.0000 1.0000
26.7200 8.0000 1.0000
26.7400 10.0000 1.0000
26.7600 6.0000 1.0000
26.7800 9.0000 1.0000
26.8000 13.0000 1.0000
26.8200 6.0000 1.0000
26.8400 5.0000 1.0000
26.8600 5.0000 1.0000
26.8800 9.0000 1.0000
26.9000 6.0000 1.0000
26.9200 12.0000 1.0000
26.9400 6.0000 1.0000
26.9600 10.0000 1.0000
26.9800 6.0000 1.0000
27.0000 6.0000 1.0000
27.0200 6.0000 1.0000
27.0400 8.0000 1.0000
27.0600 12.0000 1.0000
27.0800 8.0000 1.0000
27.1000 8.0000 1.0000
27.1200 8.0000 1.0000
27.1400 4.0000 1.0000
27.1600 5.0000 1.0000
27.1800 8.0000 1.0000
27.2000 4.0000 1.0000
27.2200 5.0000 1.0000
27.2400 9.0000 1.0000
27.2600 12.0000 1.0000
27.2800 12.0000 1.0000
27.3000 7.0000 1.0000
27.3200 5.0000 1.0000
27.3400 6.0000 1.0000
27.3600 9.0000 1.0000
27.3800 11.0000 1.0000
27.4000 6.0000 1.0000
27.4200 11.0000 1.0000
27.4400 8.0000 1.0000
27.4600 8.0000 1.0000
27.4800 8.0000 1.0000
27.5000 11.0000 1.0000
27.5200 9.0000 1.0000
27.5400 7.0000 1.0000
27.5600 10.0000 1.0000
27.5800 9.0000 1.0000
27.6000 11.0000 1.0000
27.6200 9.0000 1.0000
27.6400 8.0000 1.0000
27.6600 6.0000 1.0000
27.6800 3.0000 1.0000
27.7000 11.0000 1.0000
27.7200 6.0000 1.0000
27.7400 7.0000 1.0000
27.7600 8.0000 1.0000
27.7800 8.0000 1.0000
27.8000 9.0000 1.0000
27.8200 11.0000 1.0000
27.8400 7.0000 1.0000
27.8600 9.0000 1.0000
27.8800 8.0000 1.0000
27.9000 9.0000 1.0000
27.9200 10.0000 1.0000
27.9400 6.0000 1.0000
27.9600 5.0000 1.0000
27.9800 9.0000 1.0000
28.0000 9.0000 1.0000
28.0200 12.0000 1.0000
28.0400 11.0000 1.0000
28.0600 9.0000 1.0000
28.0800 9.0000 1.0000
28.1000 4.0000 1.0000
28.1200 4.0000 1.0000
28.1400 4.0000 1.0000
28.1600 12.0000 1.0000
28.1800 8.0000 1.0000
28.2000 8.0000 1.0000
28.2200 7.0000 1.0000
28.2400 5.0000 1.0000
28.2600 11.0000 1.0000
28.2800 8.0000 1.0000
28.3000 11.0000 1.0000
28.3200 10.0000 1.0000
28.3400 9.0000 1.0000
28.3600 5.0000 1.0000
28.3800 4.0000 1.0000
28.4000 3.0000 1.0000
28.4200 11.0000 1.0000
28.4400 10.0000 1.0000
28.4600 8.0000 1.0000
28.4800 9.0000 1.0000
28.5000 4.0000 1.0000
28.5200 4.0000 1.0000
28.5400 5.0000 1.0000
28.5600 8.0000 1.0000
28.5800 6.0000 1.0000
28.6000 10.0000 1.0000
28.6200 6.0000 1.0000
28.6400 9.0000 1.0000
28.6600 7.0000 1.0000
28.6800 8.0000 1.0000
28.7000 4.0000 1.0000
28.7200 7.0000 1.0000
28.7400 11.0000 1.0000
28.7600 7.0000 1.0000
28.7800 8.0000 1.0000
28.8000 11.0000 1.0000
28.8200 7.0000 1.0000
28.8400 9.0000 1.0000
28.8600 13.0000 1.0000
28.8800 9.0000 1.0000
28.9000 6.0000 1.0000
28.9200 6.0000 1.0000
28.9400 10.0000 1.0000
28.9600 7.0000 1.0000
28.9800 16.0000 1.0000
29.0000 7.0000 1.0000
29.0200 7.0000 1.0000
29.0400 11.0000 1.0000
29.0600 6.0000 1.0000
29.0800 7.0000 1.0000
29.1000 7.0000 1.0000
29.1200 6.0000 1.0000
29.1400 5.0000 1.0000
29.1600 6.0000 1.0000
29.1800 5.0000 1.0000
29.2000 14.0000 1.0000
29.2200 13.0000 1.0000
29.2400 2.0000 1.0000
29.2600 5.0000 1.0000
29.2800 4.0000 1.0000
29.3000 8.0000 1.0000
29.3200 8.0000 1.0000
29.3400 12.0000 1.0000
29.3600 5.0000 1.0000
29.3800 9.0000 1.0000
29.4000 11.0000 1.0000
29.4200 9.0000 1.0000
29.4400 6.0000 1.0000
29.4600 5.0000 1.0000
29.4800 8.0000 1.0000
29.5000 7.0000 1.0000
29.5200 12.0000 1.0000
29.5400 9.0000 1.0000
29.5600 5.0000 1.0000
29.5800 7.0000 1.0000
29.6000 6.0000 1.0000
29.6200 9.0000 1.0000
29.6400 7.0000 1.0000
29.6600 7.0000 1.0000
29.6800 8.0000 1.0000
29.7000 10.0000 1.0000
29.7200 7.0000 1.0000
29.7400 7.0000 1.0000
29.7600 8.0000 1.0000
29.7800 10.0000 1.0000
29.8000 7.0000 1.0000
29.8200 11.0000 1.0000
29.8400 10.0000 1.0000
29.8600 14.0000 1.0000
29.8800 14.0000 1.0000
29.9000 17.0000 1.0000
29.9200 13.0000 1.0000
29.9400 16.0000 1.0000
29.9600 24.0000 1.0000
29.9800 29.0000 1.0000
30.0000 33.0000 1.0000
30.0200 49.0000 1.0000
30.0400 61.0000 1.0000
30.0600 82.0000 1.0000
30.0800 80.0000 1.0000
30.1000 105.0000 1.0000
30.1200 90.0000 1.0000
30.1400 103.0000 1.0000
30.1600 126.0000 1.0000
30.1800 121.0000 1.0000
30.2000 115.0000 1.0000
30.2200 110.0000 1.0000
30.2400 96.0000 1.0000
30.2600 77.0000 1.0000
30.2800 72.0000 1.0000
30.3000 60.0000 1.0000
30.3200 55.0000 1.0000
30.3400 33.0000 1.0000
30.3600 31.0000 1.0000
30.3800 22.0000 1.0000
30.4000 14.0000 1.0000
30.4200 26.0000 1.0000
30.4400 18.0000 1.0000
30.4600 20.0000 1.0000
30.4800 22.0000 1.0000
30.5000 31.0000 1.0000
30.5200 23.0000 1.0000
30.5400 30.0000 1.0000
30.5600 29.0000 1.0000
30.5800 31.0000 1.0000
30.6000 30.0000 1.0000
30.6200 50.0000 1.0000
30.6400 47.0000 1.0000
30.6600 36.0000 1.0000
30.6800 48.0000 1.0000
30.7000 46.0000 1.0000
30.7200 42.0000 1.0000
30.7400 40.0000 1.0000
30.7600 42.0000 1.0000
30.7800 41.0000 1.0000
30.8000 26.0000 1.0000
30.8200 24.0000 1.0000
30.8400 15.0000 1.0000
30.8600 19.0000 1.0000
30.8800 8.0000 1.0000
30.9000 11.0000 1.0000
30.9200 16.0000 1.0000
30.9400 16.0000 1.0000
30.9600 12.0000 1.0000
30.9800 17.0000 1.0000
31.0000 12.0000 1.0000
31.0200 15.0000 1.0000
31.0400 16.0000 1.0000
31.0600 24.0000 1.0000
31.0800 33.0000 1.0000
31.1000 27.0000 1.0000
31.1200 32.0000 1.0000
31.1400 27.0000 1.0000
31.1600 26.0000 1.0000
31.1800 23.0000 1.0000
31.2000 30.0000 1.0000
31.2200 29.0000 1.0000
31.2400 23.0000 1.0000
31.2600 20.0000 1.0000
31.2800 20.0000 1.0000
31.3000 14.0000 1.0000
31.3200 18.0000 1.0000
31.3400 15.0000 1.0000
31.3600 9.0000 1.0000
31.3800 15.0000 1.0000
31.4000 11.0000 1.0000
31.4200 10.0000 1.0000
31.4400 15.0000 1.0000
31.4600 12.0000 1.0000
31.4800 9.0000 1.0000
31.5000 9.0000 1.0000
31.5200 12.0000 1.0000
31.5400 18.0000 1.0000
31.5600 8.0000 1.0000
31.5800 13.0000 1.0000
31.6000 12.0000 1.0000
31.6200 16.0000 1.0000
31.6400 16.0000 1.0000
31.6600 16.0000 1.0000
31.6800 16.0000 1.0000
31.7000 16.0000 1.0000
31.7200 16.0000 1.0000
31.7400 20.0000 1.0000
31.7600 28.0000 1.0000
31.7800 30.0000 1.0000
31.8000 56.0000 1.0000
31.8200 54.0000 1.0000
31.8400 61.0000 1.0000
31.8600 69.0000 1.0000
31.8800 113.0000 1.0000
31.9000 127.0000 1.0000
31.9200 131.0000 1.0000
31.9400 139.0000 1.0000
31.9600 170.0000 1.0000
31.9800 213.0000 1.0000
32.0000 218.0000 1.0000
32.0200 222.0000 1.0000
32.0400 238.0000 1.0000
32.0600 245.0000 1.0000
32.0800 216.0000 1.0000
32.1000 190.0000 1.0000
32.1200 175.0000 1.0000
32.1400 164.0000 1.0000
32.1600 132.0000 1.0000
32.1800 80.0000 1.0000
32.2000 78.0000 1.0000
32.2200 60.0000 1.0000
32.2400 38.0000 1.0000
32.2600 44.0000 1.0000
32.2800 22.0000 1.0000
32.3000 21.0000 1.0000
32.3200 16.0000 1.0000
32.3400 18.0000 1.0000
32.3600 22.0000 1.0000
32.3800 14.0000 1.0000
32.4000 13.0000 1.0000
32.4200 13.0000 1.0000
32.4400 11.0000 1.0000
32.4600 11.0000 1.0000
32.4800 9.0000 1.0000
32.5000 13.0000 1.0000
32.5200 15.0000 1.0000
32.5400 10.0000 1.0000
32.5600 7.0000 1.0000
32.5800 4.0000 1.0000
32.6000 6.0000 1.0000
32.6200 9.0000 1.0000
32.6400 9.0000 1.0000
32.6600 5.0000 1.0000
32.6800 8.0000 1.0000
32.7000 7.0000 1.0000
32.7200 6.0000 1.0000
32.7400 6.0000 1.0000
32.7600 7.0000 1.0000
32.7800 15.0000 1.0000
32.8000 6.0000 1.0000
32.8200 9.0000 1.0000
32.8400 9.0000 1.0000
32.8600 8.0000 1.0000
32.8800 8.0000 1.0000
32.9000 7.0000 1.0000
32.9200 3.0000 1.0000
32.9400 6.0000 1.0000
32.9600 7.0000 1.0000
32.9800 8.0000 1.0000
33.0000 8.0000 1.0000
33.0200 10.0000 1.0000
33.0400 8.0000 1.0000
33.0600 9.0000 1.0000
33.0800 10.0000 1.0000
33.1000 7.0000 1.0000
33.1200 8.0000 1.0000
33.1400 12.0000 1.0000
33.1600 8.0000 1.0000
33.1800 6.0000 1.0000
33.2000 10.0000 1.0000
33.2200 7.0000 1.0000
33.2400 9.0000 1.0000
33.2600 7.0000 1.0000
33.2800 6.0000 1.0000
33.3000 5.0000 1.0000
33.3200 13.0000 1.0000
33.3400 8.0000 1.0000
33.3600 4.0000 1.0000
33.3800 10.0000 1.0000
33.4000 8.0000 1.0000
33.4200 7.0000 1.0000
33.4400 8.0000 1.0000
33.4600 12.0000 1.0000
33.4800 8.0000 1.0000
33.5000 8.0000 1.0000
33.5200 7.0000 1.0000
33.5400 16.0000 1.0000
33.5600 10.0000 1.0000
33.5800 14.0000 1.0000
33.6000 19.0000 1.0000
33.6200 20.0000 1.0000
33.6400 17.0000 1.0000
33.6600 16.0000 1.0000
33.6800 23.0000 1.0000
33.7000 28.0000 1.0000
33.7200 32.0000 1.0000
33.7400 45.0000 1.0000
33.7600 48.0000 1.0000
33.7800 74.0000 1.0000
33.8000 91.0000 1.0000
33.8200 116.0000 1.0000
33.8400 138.0000 1.0000
33.8600 152.0000 1.0000
33.8800 164.0000 1.0000
33.9000 222.0000 1.0000
33.9200 233.0000 1.0000
33.9400 266.0000 1.0000
33.9600 263.0000 1.0000
33.9800 265.0000 1.0000
34.0000 266.0000 1.0000
34.0200 253.0000 1.0000
34.0400 220.0000 1.0000
34.0600 205.0000 1.0000
34.0800 167.0000 1.0000
34.1000 145.0000 1.0000
34.1200 100.0000 1.0000
34.1400 85.0000 1.0000
34.1600 69.0000 1.0000
34.1800 47.0000 1.0000
34.2000 36.0000 1.0000
34.2200 33.0000 1.0000
34.2400 21.0000 1.0000
34.2600 16.0000 1.0000
34.2800 26.0000 1.0000
34.3000 17.0000 1.0000
34.3200 20.0000 1.0000
34.3400 16.0000 1.0000
34.3600 16.0000 1.0000
34.3800 9.0000 1.0000
34.4000 14.0000 1.0000
34.4200 9.0000 1.0000
34.4400 12.0000 1.0000
34.4600 12.0000 1.0000
34.4800 14.0000 1.0000
34.5000 15.0000 1.0000
34.5200 11.0000 1.0000
34.5400 10.0000 1.0000
34.5600 9.0000 1.0000
34.5800 19.0000 1.0000
34.6000 11.0000 1.0000
34.6200 16.0000 1.0000
34.6400 10.0000 1.0000
34.6600 5.0000 1.0000
34.6800 9.0000 1.0000
34.7000 11.0000 1.0000
34.7200 10.0000 1.0000
34.7400 12.0000 1.0000
34.7600 11.0000 1.0000
34.7800 8.0000 1.0000
34.8000 9.0000 1.0000
34.8200 16.0000 1.0000
34.8400 15.0000 1.0000
34.8600 21.0000 1.0000
34.8800 18.0000 1.0000
34.9000 16.0000 1.0000
34.9200 26.0000 1.0000
34.9400 20.0000 1.0000
34.9600 21.0000 1.0000
34.9800 37.0000 1.0000
35.0000 22.0000 1.0000
35.0200 30.0000 1.0000
35.0400 43.0000 1.0000
35.0600 38.0000 1.0000
35.0800 25.0000 1.0000
35.1000 30.0000 1.0000
35.1200 19.0000 1.0000
35.1400 21.0000 1.0000
35.1600 30.0000 1.0000
35.1800 27.0000 1.0000
35.2000 28.0000 1.0000
35.2200 19.0000 1.0000
35.2400 26.0000 1.0000
35.2600 28.0000 1.0000
35.2800 16.0000 1.0000
35.3000 29.0000 1.0000
35.3200 24.0000 1.0000
35.3400 35.0000 1.0000
35.3600 25.0000 1.0000
35.3800 31.0000 1.0000
35.4000 29.0000 1.0000
35.4200 25.0000 1.0000
35.4400 28.0000 1.0000
35.4600 32.0000 1.0000
35.4800 20.0000 1.0000
35.5000 21.0000 1.0000
35.5200 22.0000 1.0000
35.5400 20.0000 1.0000
35.5600 15.0000 1.0000
35.5800 23.0000 1.0000
35.6000 15.0000 1.0000
35.6200 16.0000 1.0000
35.6400 14.0000 1.0000
35.6600 11.0000 1.0000
35.6800 10.0000 1.0000
35.7000 8.0000 1.0000
35.7200 12.0000 1.0000
35.7400 4.0000 1.0000
35.7600 6.0000 1.0000
35.7800 3.0000 1.0000
35.8000 7.0000 1.0000
35.8200 10.0000 1.0000
35.8400 10.0000 1.0000
35.8600 6.0000 1.0000
35.8800 9.0000 1.0000
35.9000 12.0000 1.0000
35.9200 8.0000 1.0000
35.9400 11.0000 1.0000
35.9600 3.0000 1.0000
35.9800 6.0000 1.0000
36.0000 9.0000 1.0000
36.0200 10.0000 1.0000
36.0400 6.0000 1.0000
36.0600 5.0000 1.0000
36.0800 9.0000 1.0000
36.1000 10.0000 1.0000
36.1200 4.0000 1.0000
36.1400 9.0000 1.0000
36.1600 6.0000 1.0000
36.1800 4.0000 1.0000
36.2000 6.0000 1.0000
36.2200 5.0000 1.0000
36.2400 4.0000 1.0000
36.2600 3.0000 1.0000
36.2800 1.0000 1.0000
36.3000 8.0000 1.0000
36.3200 6.0000 1.0000
36.3400 6.0000 1.0000
36.3600 6.0000 1.0000
36.3800 5.0000 1.0000
36.4000 9.0000 1.0000
36.4200 11.0000 1.0000
36.4400 6.0000 1.0000
36.4600 8.0000 1.0000
36.4800 8.0000 1.0000
36.5000 7.0000 1.0000
36.5200 6.0000 1.0000
36.5400 3.0000 1.0000
36.5600 9.0000 1.0000
36.5800 12.0000 1.0000
36.6000 8.0000 1.0000
36.6200 17.0000 1.0000
36.6400 19.0000 1.0000
36.6600 18.0000 1.0000
36.6800 17.0000 1.0000
36.7000 24.0000 1.0000
36.7200 19.0000 1.0000
36.7400 36.0000 1.0000
36.7600 37.0000 1.0000
36.7800 50.0000 1.0000
36.8000 76.0000 1.0000
36.8200 73.0000 1.0000
36.8400 92.0000 1.0000
36.8600 91.0000 1.0000
36.8800 109.0000 1.0000
36.9000 137.0000 1.0000
36.9200 105.0000 1.0000
36.9400 125.0000 1.0000
36.9600 123.0000 1.0000
36.9800 110.0000 1.0000
37.0000 115.0000 1.0000
37.0200 102.0000 1.0000
37.0400 92.0000 1.0000
37.0600 73.0000 1.0000
37.0800 57.0000 1.0000
37.1000 43.0000 1.0000
37.1200 38.0000 1.0000
37.1400 26.0000 1.0000
37.1600 31.0000 1.0000
37.1800 14.0000 1.0000
37.2000 17.0000 1.0000
37.2200 19.0000 1.0000
37.2400 13.0000 1.0000
37.2600 9.0000 1.0000
37.2800 8.0000 1.0000
37.3000 10.0000 1.0000
37.3200 10.0000 1.0000
37.3400 10.0000 1.0000
37.3600 5.0000 1.0000
37.3800 12.0000 1.0000
37.4000 9.0000 1.0000
37.4200 7.0000 1.0000
37.4400 9.0000 1.0000
37.4600 6.0000 1.0000
37.4800 7.0000 1.0000
37.5000 8.0000 1.0000
37.5200 10.0000 1.0000
37.5400 7.0000 1.0000
37.5600 3.0000 1.0000
37.5800 5.0000 1.0000
37.6000 6.0000 1.0000
37.6200 5.0000 1.0000
37.6400 6.0000 1.0000
37.6600 8.0000 1.0000
37.6800 3.0000 1.0000
37.7000 5.0000 1.0000
37.7200 4.0000 1.0000
37.7400 5.0000 1.0000
37.7600 2.0000 1.0000
37.7800 6.0000 1.0000
37.8000 4.0000 1.0000
37.8200 4.0000 1.0000
37.8400 3.0000 1.0000
37.8600 2.0000 1.0000
37.8800 0.0000 1.0000
37.9000 5.0000 1.0000
37.9200 6.0000 1.0000
37.9400 6.0000 1.0000
37.9600 4.0000 1.0000
37.9800 7.0000 1.0000
38.0000 3.0000 1.0000
38.0200 7.0000 1.0000
38.0400 4.0000 1.0000
38.0600 9.0000 1.0000
38.0800 8.0000 1.0000
38.1000 9.0000 1.0000
38.1200 12.0000 1.0000
38.1400 10.0000 1.0000
38.1600 5.0000 1.0000
38.1800 11.0000 1.0000
38.2000 10.0000 1.0000
38.2200 15.0000 1.0000
38.2400 7.0000 1.0000
38.2600 17.0000 1.0000
38.2800 13.0000 1.0000
38.3000 12.0000 1.0000
38.3200 12.0000 1.0000
38.3400 11.0000 1.0000
38.3600 12.0000 1.0000
38.3800 9.0000 1.0000
38.4000 7.0000 1.0000
38.4200 5.0000 1.0000
38.4400 3.0000 1.0000
38.4600 9.0000 1.0000
38.4800 11.0000 1.0000
38.5000 5.0000 1.0000
38.5200 1.0000 1.0000
38.5400 4.0000 1.0000
38.5600 6.0000 1.0000
38.5800 4.0000 1.0000
38.6000 2.0000 1.0000
38.6200 7.0000 1.0000
38.6400 11.0000 1.0000
38.6600 8.0000 1.0000
38.6800 5.0000 1.0000
38.7000 9.0000 1.0000
38.7200 7.0000 1.0000
38.7400 10.0000 1.0000
38.7600 7.0000 1.0000
38.7800 5.0000 1.0000
38.8000 6.0000 1.0000
38.8200 3.0000 1.0000
38.8400 1.0000 1.0000
38.8600 10.0000 1.0000
38.8800 10.0000 1.0000
38.9000 12.0000 1.0000
38.9200 11.0000 1.0000
38.9400 9.0000 1.0000
38.9600 15.0000 1.0000
38.9800 8.0000 1.0000
39.0000 10.0000 1.0000
39.0200 10.0000 1.0000
39.0400 13.0000 1.0000
39.0600 8.0000 1.0000
39.0800 10.0000 1.0000
39.1000 11.0000 1.0000
39.1200 6.0000 1.0000
39.1400 5.0000 1.0000
39.1600 7.0000 1.0000
39.1800 4.0000 1.0000
39.2000 7.0000 1.0000
39.2200 10.0000 1.0000
39.2400 6.0000 1.0000
39.2600 6.0000 1.0000
39.2800 3.0000 1.0000
39.3000 0.0000 1.0000
39.3200 3.0000 1.0000
39.3400 3.0000 1.0000
39.3600 5.0000 1.0000
39.3800 2.0000 1.0000
39.4000 2.0000 1.0000
39.4200 3.0000 1.0000
39.4400 6.0000 1.0000
39.4600 6.0000 1.0000
39.4800 8.0000 1.0000
39.5000 5.0000 1.0000
39.5200 2.0000 1.0000
39.5400 5.0000 1.0000
39.5600 4.0000 1.0000
39.5800 5.0000 1.0000
39.6000 6.0000 1.0000
39.6200 5.0000 1.0000
39.6400 2.0000 1.0000
39.6600 7.0000 1.0000
39.6800 7.0000 1.0000
39.7000 7.0000 1.0000
39.7200 10.0000 1.0000
39.7400 8.0000 1.0000
39.7600 9.0000 1.0000
39.7800 11.0000 1.0000
39.8000 9.0000 1.0000
39.8200 10.0000 1.0000
39.8400 11.0000 1.0000
39.8600 11.0000 1.0000
39.8800 8.0000 1.0000
39.9000 11.0000 1.0000
39.9200 16.0000 1.0000
39.9400 20.0000 1.0000
39.9600 36.0000 1.0000
39.9800 30.0000 1.0000
40.0000 35.0000 1.0000
40.0200 49.0000 1.0000
40.0400 52.0000 1.0000
40.0600 55.0000 1.0000
40.0800 58.0000 1.0000
40.1000 66.0000 1.0000
40.1200 85.0000 1.0000
40.1400 79.0000 1.0000
40.1600 99.0000 1.0000
40.1800 82.0000 1.0000
40.2000 86.0000 1.0000
40.2200 88.0000 1.0000
40.2400 70.0000 1.0000
40.2600 70.0000 1.0000
40.2800 51.0000 1.0000
40.3000 52.0000 1.0000
40.3200 42.0000 1.0000
40.3400 37.0000 1.0000
40.3600 36.0000 1.0000
40.3800 22.0000 1.0000
40.4000 18.0000 1.0000
40.4200 15.0000 1.0000
40.4400 17.0000 1.0000
40.4600 12.0000 1.0000
40.4800 14.0000 1.0000
40.5000 12.0000 1.0000
40.5200 9.0000 1.0000
40.5400 7.0000 1.0000
40.5600 5.0000 1.0000
40.5800 3.0000 1.0000
40.6000 4.0000 1.0000
40.6200 4.0000 1.0000
40.6400 5.0000 1.0000
40.6600 7.0000 1.0000
40.6800 2.0000 1.0000
40.7000 8.0000 1.0000
40.7200 7.0000 1.0000
40.7400 4.0000 1.0000
40.7600 6.0000 1.0000
40.7800 6.0000 1.0000
40.8000 4.0000 1.0000
40.8200 3.0000 1.0000
40.8400 4.0000 1.0000
40.8600 3.0000 1.0000
40.8800 2.0000 1.0000
40.9000 4.0000 1.0000
40.9200 3.0000 1.0000
40.9400 6.0000 1.0000
40.9600 7.0000 1.0000
40.9800 5.0000 1.0000
41.0000 4.0000 1.0000
41.0200 3.0000 1.0000
41.0400 4.0000 1.0000
41.0600 4.0000 1.0000
41.0800 5.0000 1.0000
41.1000 7.0000 1.0000
41.1200 4.0000 1.0000
41.1400 3.0000 1.0000
41.1600 5.0000 1.0000
41.1800 8.0000 1.0000
41.2000 6.0000 1.0000
41.2200 7.0000 1.0000
41.2400 5.0000 1.0000
41.2600 5.0000 1.0000
41.2800 3.0000 1.0000
41.3000 2.0000 1.0000
41.3200 4.0000 1.0000
41.3400 4.0000 1.0000
41.3600 3.0000 1.0000
41.3800 4.0000 1.0000
41.4000 3.0000 1.0000
41.4200 2.0000 1.0000
41.4400 6.0000 1.0000
41.4600 5.0000 1.0000
41.4800 6.0000 1.0000
41.5000 5.0000 1.0000
41.5200 5.0000 1.0000
41.5400 5.0000 1.0000
41.5600 3.0000 1.0000
41.5800 3.0000 1.0000
41.6000 3.0000 1.0000
41.6200 4.0000 1.0000
41.6400 3.0000 1.0000
41.6600 7.0000 1.0000
41.6800 8.0000 1.0000
41.7000 3.0000 1.0000
41.7200 4.0000 1.0000
41.7400 3.0000 1.0000
41.7600 5.0000 1.0000
41.7800 6.0000 1.0000
41.8000 2.0000 1.0000
41.8200 4.0000 1.0000
41.8400 6.0000 1.0000
41.8600 6.0000 1.0000
41.8800 5.0000 1.0000
41.9000 10.0000 1.0000
41.9200 6.0000 1.0000
41.9400 7.0000 1.0000
41.9600 10.0000 1.0000
41.9800 5.0000 1.0000
42.0000 6.0000 1.0000
42.0200 9.0000 1.0000
42.0400 12.0000 1.0000
42.0600 15.0000 1.0000
42.0800 18.0000 1.0000
42.1000 17.0000 1.0000
42.1200 25.0000 1.0000
42.1400 30.0000 1.0000
42.1600 48.0000 1.0000
42.1800 47.0000 1.0000
42.2000 54.0000 1.0000
42.2200 55.0000 1.0000
42.2400 58.0000 1.0000
42.2600 57.0000 1.0000
42.2800 66.0000 1.0000
42.3000 70.0000 1.0000
42.3200 63.0000 1.0000
42.3400 51.0000 1.0000
42.3600 47.0000 1.0000
42.3800 46.0000 1.0000
42.4000 32.0000 1.0000
42.4200 35.0000 1.0000
42.4400 31.0000 1.0000
42.4600 23.0000 1.0000
42.4800 20.0000 1.0000
42.5000 18.0000 1.0000
42.5200 15.0000 1.0000
42.5400 11.0000 1.0000
42.5600 9.0000 1.0000
42.5800 14.0000 1.0000
42.6000 17.0000 1.0000
42.6200 11.0000 1.0000
42.6400 9.0000 1.0000
42.6600 10.0000 1.0000
42.6800 11.0000 1.0000
42.7000 11.0000 1.0000
42.7200 12.0000 1.0000
42.7400 13.0000 1.0000
42.7600 11.0000 1.0000
42.7800 9.0000 1.0000
42.8000 6.0000 1.0000
42.8200 8.0000 1.0000
42.8400 7.0000 1.0000
42.8600 5.0000 1.0000
42.8800 4.0000 1.0000
42.9000 6.0000 1.0000
42.9200 2.0000 1.0000
42.9400 6.0000 1.0000
42.9600 5.0000 1.0000
42.9800 2.0000 1.0000
43.0000 2.0000 1.0000
43.0200 5.0000 1.0000
43.0400 6.0000 1.0000
43.0600 5.0000 1.0000
43.0800 5.0000 1.0000
43.1000 2.0000 1.0000
43.1200 3.0000 1.0000
43.1400 5.0000 1.0000
43.1600 4.0000 1.0000
43.1800 5.0000 1.0000
43.2000 2.0000 1.0000
43.2200 6.0000 1.0000
43.2400 5.0000 1.0000
43.2600 5.0000 1.0000
43.2800 5.0000 1.0000
43.3000 4.0000 1.0000
43.3200 2.0000 1.0000
43.3400 1.0000 1.0000
43.3600 3.0000 1.0000
43.3800 2.0000 1.0000
43.4000 4.0000 1.0000
43.4200 6.0000 1.0000
43.4400 7.0000 1.0000
43.4600 8.0000 1.0000
43.4800 6.0000 1.0000
43.5000 3.0000 1.0000
43.5200 5.0000 1.0000
43.5400 5.0000 1.0000
43.5600 4.0000 1.0000
43.5800 6.0000 1.0000
43.6000 7.0000 1.0000
43.6200 6.0000 1.0000
43.6400 8.0000 1.0000
43.6600 6.0000 1.0000
43.6800 6.0000 1.0000
43.7000 5.0000 1.0000
43.7200 3.0000 1.0000
43.7400 6.0000 1.0000
43.7600 3.0000 1.0000
43.7800 2.0000 1.0000
43.8000 4.0000 1.0000
43.8200 6.0000 1.0000
43.8400 8.0000 1.0000
43.8600 5.0000 1.0000
43.8800 3.0000 1.0000
43.9000 3.0000 1.0000
43.9200 3.0000 1.0000
43.9400 5.0000 1.0000
43.9600 4.0000 1.0000
43.9800 2.0000 1.0000
44.0000 3.0000 1.0000
44.0200 5.0000 1.0000
44.0400 8.0000 1.0000
44.0600 6.0000 1.0000
44.0800 3.0000 1.0000
44.1000 1.0000 1.0000
44.1200 3.0000 1.0000
44.1400 3.0000 1.0000
44.1600 4.0000 1.0000
44.1800 2.0000 1.0000
44.2000 1.0000 1.0000
44.2200 2.0000 1.0000
44.2400 5.0000 1.0000
44.2600 4.0000 1.0000
44.2800 4.0000 1.0000
44.3000 5.0000 1.0000
44.3200 3.0000 1.0000
44.3400 2.0000 1.0000
44.3600 3.0000 1.0000
44.3800 4.0000 1.0000
44.4000 3.0000 1.0000
44.4200 5.0000 1.0000
44.4400 6.0000 1.0000
44.4600 2.0000 1.0000
44.4800 4.0000 1.0000
44.5000 6.0000 1.0000
44.5200 6.0000 1.0000
44.5400 5.0000 1.0000
44.5600 7.0000 1.0000
44.5800 7.0000 1.0000
44.6000 3.0000 1.0000
44.6200 4.0000 1.0000
44.6400 5.0000 1.0000
44.6600 5.0000 1.0000
44.6800 4.0000 1.0000
44.7000 7.0000 1.0000
44.7200 3.0000 1.0000
44.7400 1.0000 1.0000
44.7600 5.0000 1.0000
44.7800 6.0000 1.0000
44.8000 7.0000 1.0000
44.8200 3.0000 1.0000
44.8400 2.0000 1.0000
44.8600 5.0000 1.0000
44.8800 4.0000 1.0000
44.9000 5.0000 1.0000
44.9200 5.0000 1.0000
44.9400 4.0000 1.0000
44.9600 4.0000 1.0000
44.9800 5.0000 1.0000
45.0000 3.0000 1.0000
45.0200 3.0000 1.0000
45.0400 4.0000 1.0000
45.0600 4.0000 1.0000
45.0800 3.0000 1.0000
45.1000 5.0000 1.0000
45.1200 3.0000 1.0000
45.1400 4.0000 1.0000
45.1600 2.0000 1.0000
45.1800 1.0000 1.0000
45.2000 2.0000 1.0000
45.2200 2.0000 1.0000
45.2400 3.0000 1.0000
45.2600 3.0000 1.0000
45.2800 1.0000 1.0000
45.3000 1.0000 1.0000
45.3200 2.0000 1.0000
45.3400 4.0000 1.0000
45.3600 3.0000 1.0000
45.3800 1.0000 1.0000
45.4000 1.0000 1.0000
45.4200 3.0000 1.0000
45.4400 4.0000 1.0000
45.4600 3.0000 1.0000
45.4800 3.0000 1.0000
45.5000 2.0000 1.0000
45.5200 5.0000 1.0000
45.5400 5.0000 1.0000
45.5600 3.0000 1.0000
45.5800 2.0000 1.0000
45.6000 3.0000 1.0000
45.6200 4.0000 1.0000
45.6400 3.0000 1.0000
45.6600 1.0000 1.0000
45.6800 2.0000 1.0000
45.7000 3.0000 1.0000
45.7200 4.0000 1.0000
45.7400 6.0000 1.0000
45.7600 4.0000 1.0000
45.7800 3.0000 1.0000
45.8000 2.0000 1.0000
45.8200 3.0000 1.0000
45.8400 2.0000 1.0000
45.8600 2.0000 1.0000
45.8800 3.0000 1.0000
45.9000 2.0000 1.0000
45.9200 3.0000 1.0000
45.9400 5.0000 1.0000
45.9600 6.0000 1.0000
45.9800 5.0000 1.0000
46.0000 1.0000 1.0000
46.0200 5.0000 1.0000
46.0400 6.0000 1.0000
46.0600 5.0000 1.0000
46.0800 5.0000 1.0000
46.1000 6.0000 1.0000
46.1200 5.0000 1.0000
46.1400 4.0000 1.0000
46.1600 5.0000 1.0000
46.1800 5.0000 1.0000
46.2000 5.0000 1.0000
46.2200 6.0000 1.0000
46.2400 7.0000 1.0000
46.2600 10.0000 1.0000
46.2800 10.0000 1.0000
46.3000 13.0000 1.0000
46.3200 12.0000 1.0000
46.3400 15.0000 1.0000
46.3600 27.0000 1.0000
46.3800 23.0000 1.0000
46.4000 19.0000 1.0000
46.4200 22.0000 1.0000
46.4400 22.0000 1.0000
46.4600 22.0000 1.0000
46.4800 22.0000 1.0000
46.5000 18.0000 1.0000
46.5200 13.0000 1.0000
46.5400 7.0000 1.0000
46.5600 11.0000 1.0000
46.5800 17.0000 1.0000
46.6000 15.0000 1.0000
46.6200 9.0000 1.0000
46.6400 6.0000 1.0000
46.6600 4.0000 1.0000
46.6800 5.0000 1.0000
46.7000 7.0000 1.0000
46.7200 8.0000 1.0000
46.7400 4.0000 1.0000
46.7600 5.0000 1.0000
46.7800 6.0000 1.0000
46.8000 5.0000 1.0000
46.8200 5.0000 1.0000
46.8400 4.0000 1.0000
46.8600 4.0000 1.0000
46.8800 5.0000 1.0000
46.9000 5.0000 1.0000
46.9200 6.0000 1.0000
46.9400 5.0000 1.0000
46.9600 5.0000 1.0000
46.9800 8.0000 1.0000
47.0000 7.0000 1.0000
47.0200 5.0000 1.0000
47.0400 4.0000 1.0000
47.0600 4.0000 1.0000
47.0800 6.0000 1.0000
47.1000 8.0000 1.0000
47.1200 8.0000 1.0000
47.1400 7.0000 1.0000
47.1600 7.0000 1.0000
47.1800 10.0000 1.0000
47.2000 8.0000 1.0000
47.2200 7.0000 1.0000
47.2400 8.0000 1.0000
47.2600 8.0000 1.0000
47.2800 8.0000 1.0000
47.3000 8.0000 1.0000
47.3200 9.0000 1.0000
47.3400 6.0000 1.0000
47.3600 6.0000 1.0000
47.3800 4.0000 1.0000
47.4000 5.0000 1.0000
47.4200 5.0000 1.0000
47.4400 6.0000 1.0000
47.4600 5.0000 1.0000
47.4800 3.0000 1.0000
47.5000 5.0000 1.0000
47.5200 8.0000 1.0000
47.5400 6.0000 1.0000
47.5600 4.0000 1.0000
47.5800 4.0000 1.0000
47.6000 4.0000 1.0000
47.6200 5.0000 1.0000
47.6400 5.0000 1.0000
47.6600 6.0000 1.0000
47.6800 6.0000 1.0000
47.7000 7.0000 1.0000
47.7200 5.0000 1.0000
47.7400 5.0000 1.0000
47.7600 6.0000 1.0000
47.7800 5.0000 1.0000
47.8000 7.0000 1.0000
47.8200 3.0000 1.0000
47.8400 2.0000 1.0000
47.8600 3.0000 1.0000
47.8800 6.0000 1.0000
47.9000 6.0000 1.0000
47.9200 4.0000 1.0000
47.9400 3.0000 1.0000
47.9600 4.0000 1.0000
47.9800 4.0000 1.0000
48.0000 5.0000 1.0000
48.0200 5.0000 1.0000
48.0400 4.0000 1.0000
48.0600 4.0000 1.0000
48.0800 4.0000 1.0000
48.1000 4.0000 1.0000
48.1200 3.0000 1.0000
48.1400 3.0000 1.0000
48.1600 5.0000 1.0000
48.1800 2.0000 1.0000
48.2000 1.0000 1.0000
48.2200 3.0000 1.0000
48.2400 5.0000 1.0000
48.2600 8.0000 1.0000
48.2800 6.0000 1.0000
48.3000 2.0000 1.0000
48.3200 3.0000 1.0000
48.3400 2.0000 1.0000
48.3600 1.0000 1.0000
48.3800 3.0000 1.0000
48.4000 5.0000 1.0000
48.4200 6.0000 1.0000
48.4400 6.0000 1.0000
48.4600 7.0000 1.0000
48.4800 6.0000 1.0000
48.5000 6.0000 1.0000
48.5200 4.0000 1.0000
48.5400 4.0000 1.0000
48.5600 3.0000 1.0000
48.5800 4.0000 1.0000
48.6000 6.0000 1.0000
48.6200 6.0000 1.0000
48.6400 5.0000 1.0000
48.6600 4.0000 1.0000
48.6800 2.0000 1.0000
48.7000 3.0000 1.0000
48.7200 1.0000 1.0000
48.7400 1.0000 1.0000
48.7600 2.0000 1.0000
48.7800 4.0000 1.0000
48.8000 3.0000 1.0000
48.8200 5.0000 1.0000
48.8400 5.0000 1.0000
48.8600 5.0000 1.0000
48.8800 8.0000 1.0000
48.9000 7.0000 1.0000
48.9200 4.0000 1.0000
48.9400 2.0000 1.0000
48.9600 3.0000 1.0000
48.9800 3.0000 1.0000
49.0000 3.0000 1.0000
49.0200 4.0000 1.0000
49.0400 5.0000 1.0000
49.0600 6.0000 1.0000
49.0800 4.0000 1.0000
49.1000 3.0000 1.0000
49.1200 2.0000 1.0000
49.1400 4.0000 1.0000
49.1600 4.0000 1.0000
49.1800 3.0000 1.0000
49.2000 5.0000 1.0000
49.2200 5.0000 1.0000
49.2400 4.0000 1.0000
49.2600 5.0000 1.0000
49.2800 3.0000 1.0000
49.3000 1.0000 1.0000
49.3200 2.0000 1.0000
49.3400 2.0000 1.0000
49.3600 4.0000 1.0000
49.3800 4.0000 1.0000
49.4000 6.0000 1.0000
49.4200 8.0000 1.0000
49.4400 6.0000 1.0000
49.4600 4.0000 1.0000
49.4800 4.0000 1.0000
49.5000 7.0000 1.0000
49.5200 6.0000 1.0000
49.5400 4.0000 1.0000
49.5600 4.0000 1.0000
49.5800 5.0000 1.0000
49.6000 5.0000 1.0000
49.6200 8.0000 1.0000
49.6400 7.0000 1.0000
49.6600 6.0000 1.0000
49.6800 8.0000 1.0000
49.7000 7.0000 1.0000
49.7200 5.0000 1.0000
49.7400 9.0000 1.0000
49.7600 11.0000 1.0000
49.7800 13.0000 1.0000
49.8000 18.0000 1.0000
49.8200 17.0000 1.0000
49.8400 12.0000 1.0000
49.8600 13.0000 1.0000
49.8800 15.0000 1.0000
49.9000 17.0000 1.0000
49.9200 20.0000 1.0000
49.9400 21.0000 1.0000
49.9600 16.0000 1.0000
49.9800 14.0000 1.0000
50.0000 16.0000 1.0000
*RAS_INT_END
*RAS_DATA_END
